stimulus,gender,x,y,trials.thisRepN,trials.thisTrialN,trials.thisN,trials.thisIndex,trials_2.thisRepN,trials_2.thisTrialN,trials_2.thisN,trials_2.thisIndex,trials_3.thisRepN,trials_3.thisTrialN,trials_3.thisN,trials_3.thisIndex,trials_4.thisRepN,trials_4.thisTrialN,trials_4.thisN,trials_4.thisIndex,trials_5.thisRepN,trials_5.thisTrialN,trials_5.thisN,trials_5.thisIndex,trials_6.thisRepN,trials_6.thisTrialN,trials_6.thisN,trials_6.thisIndex,trials_7.thisRepN,trials_7.thisTrialN,trials_7.thisN,trials_7.thisIndex,trials_8.thisRepN,trials_8.thisTrialN,trials_8.thisN,trials_8.thisIndex,trials_9.thisRepN,trials_9.thisTrialN,trials_9.thisN,trials_9.thisIndex,trials_10.thisRepN,trials_10.thisTrialN,trials_10.thisN,trials_10.thisIndex,trials_11.thisRepN,trials_11.thisTrialN,trials_11.thisN,trials_11.thisIndex,trials_12.thisRepN,trials_12.thisTrialN,trials_12.thisN,trials_12.thisIndex,key_resp_6.keys,key_resp_6.rt,key_resp_3.keys,key_resp_3.rt,key_resp_2.keys,key_resp_2.rt,key_resp_5.keys,key_resp_5.rt,key_resp_4.keys,key_resp_4.rt,key_resp_7.keys,key_resp_7.rt,participant,session,date,expName,psychopyVersion,frameRate,
POFA/fMRI_POFA/072c.tif,,,,0,0,0,4,,,,,,,,,,,,,,,,,,,,,,,,,,,,,,,,,,,,,,,,,,,,,b,0.9388584143453045,,,,,,,,,,,fernando5,001,2019_Nov_21_2102,emofaces5,3.0.1,64.07314180117363,
POFA/fMRI_POFA/033c.tif,,,,0,1,1,6,,,,,,,,,,,,,,,,,,,,,,,,,,,,,,,,,,,,,,,,,,,,,c,0.5164178544509923,,,,,,,,,,,fernando5,001,2019_Nov_21_2102,emofaces5,3.0.1,64.07314180117363,
POFA/fMRI_POFA/021c.tif,,,,0,2,2,1,,,,,,,,,,,,,,,,,,,,,,,,,,,,,,,,,,,,,,,,,,,,,b,0.45475989836268127,,,,,,,,,,,fernando5,001,2019_Nov_21_2102,emofaces5,3.0.1,64.07314180117363,
POFA/fMRI_POFA/033c.tif,,,,0,3,3,0,,,,,,,,,,,,,,,,,,,,,,,,,,,,,,,,,,,,,,,,,,,,,c,0.3451601863198448,,,,,,,,,,,fernando5,001,2019_Nov_21_2102,emofaces5,3.0.1,64.07314180117363,
POFA/fMRI_POFA/021c.tif,,,,0,4,4,7,,,,,,,,,,,,,,,,,,,,,,,,,,,,,,,,,,,,,,,,,,,,,b,0.36081658019975293,,,,,,,,,,,fernando5,001,2019_Nov_21_2102,emofaces5,3.0.1,64.07314180117363,
POFA/fMRI_POFA/013c.tif,,,,0,5,5,9,,,,,,,,,,,,,,,,,,,,,,,,,,,,,,,,,,,,,,,,,,,,,c,0.3293084281613119,,,,,,,,,,,fernando5,001,2019_Nov_21_2102,emofaces5,3.0.1,64.07314180117363,
POFA/fMRI_POFA/006c.tif,,,,0,6,6,8,,,,,,,,,,,,,,,,,,,,,,,,,,,,,,,,,,,,,,,,,,,,,b,0.34507595316972584,,,,,,,,,,,fernando5,001,2019_Nov_21_2102,emofaces5,3.0.1,64.07314180117363,
POFA/fMRI_POFA/013c.tif,,,,0,7,7,3,,,,,,,,,,,,,,,,,,,,,,,,,,,,,,,,,,,,,,,,,,,,,c,0.3920249613292981,,,,,,,,,,,fernando5,001,2019_Nov_21_2102,emofaces5,3.0.1,64.07314180117363,
POFA/fMRI_POFA/083c.tif,,,,0,8,8,5,,,,,,,,,,,,,,,,,,,,,,,,,,,,,,,,,,,,,,,,,,,,,b,0.3139903825649526,,,,,,,,,,,fernando5,001,2019_Nov_21_2102,emofaces5,3.0.1,64.07314180117363,
POFA/fMRI_POFA/006c.tif,,,,0,9,9,2,,,,,,,,,,,,,,,,,,,,,,,,,,,,,,,,,,,,,,,,,,,,,c,0.40745059883920476,,,,,,,,,,,fernando5,001,2019_Nov_21_2102,emofaces5,3.0.1,64.07314180117363,
POFA/fMRI_POFA/008a.tif,f,,,,,,,0,0,0,1,,,,,,,,,,,,,,,,,,,,,,,,,,,,,,,,,,,,,,,,,,,c,1.5483875191857805,,,,,,,,,fernando5,001,2019_Nov_21_2102,emofaces5,3.0.1,64.07314180117363,
POFA/fMRI_POFA/049a.tif,f,,,,,,,0,1,1,2,,,,,,,,,,,,,,,,,,,,,,,,,,,,,,,,,,,,,,,,,,,c,1.3609415142273065,,,,,,,,,fernando5,001,2019_Nov_21_2102,emofaces5,3.0.1,64.07314180117363,
POFA/fMRI_POFA/067a.tif,f,,,,,,,0,2,2,4,,,,,,,,,,,,,,,,,,,,,,,,,,,,,,,,,,,,,,,,,,,c,1.0794428295776015,,,,,,,,,fernando5,001,2019_Nov_21_2102,emofaces5,3.0.1,64.07314180117363,
POFA/fMRI_POFA/058a.tif,f,,,,,,,0,3,3,3,,,,,,,,,,,,,,,,,,,,,,,,,,,,,,,,,,,,,,,,,,,c,0.673096463578986,,,,,,,,,fernando5,001,2019_Nov_21_2102,emofaces5,3.0.1,64.07314180117363,
POFA/fMRI_POFA/015a.tif,m,,,,,,,0,4,4,7,,,,,,,,,,,,,,,,,,,,,,,,,,,,,,,,,,,,,,,,,,,b,,,,,,,,,,fernando5,001,2019_Nov_21_2102,emofaces5,3.0.1,64.07314180117363,
POFA/fMRI_POFA/033a-sad.tif,m,,,,,,,0,5,5,9,,,,,,,,,,,,,,,,,,,,,,,,,,,,,,,,,,,,,,,,,,,b,,,,,,,,,,fernando5,001,2019_Nov_21_2102,emofaces5,3.0.1,64.07314180117363,
POFA/fMRI_POFA/023a.tif,m,,,,,,,0,6,6,8,,,,,,,,,,,,,,,,,,,,,,,,,,,,,,,,,,,,,,,,,,,b,,,,,,,,,,fernando5,001,2019_Nov_21_2102,emofaces5,3.0.1,64.07314180117363,
POFA/fMRI_POFA/094a.tif,f,,,,,,,0,7,7,6,,,,,,,,,,,,,,,,,,,,,,,,,,,,,,,,,,,,,,,,,,,c,0.7202139380387962,,,,,,,,,fernando5,001,2019_Nov_21_2102,emofaces5,3.0.1,64.07314180117363,
POFA/fMRI_POFA/086a.tif,f,,,,,,,0,8,8,5,,,,,,,,,,,,,,,,,,,,,,,,,,,,,,,,,,,,,,,,,,,c,0.5168131839745911,,,,,,,,,fernando5,001,2019_Nov_21_2102,emofaces5,3.0.1,64.07314180117363,
POFA/fMRI_POFA/002a.tif,f,,,,,,,0,9,9,0,,,,,,,,,,,,,,,,,,,,,,,,,,,,,,,,,,,,,,,,,,,c,0.6731541526678484,,,,,,,,,fernando5,001,2019_Nov_21_2102,emofaces5,3.0.1,64.07314180117363,
POFA/fMRI_POFA/093a.tif,f,,,,,,,,,,,0,0,0,7,,,,,,,,,,,,,,,,,,,,,,,,,,,,,,,,,,,,,,,,,c,0.5950848896754906,,,,,,,fernando5,001,2019_Nov_21_2102,emofaces5,3.0.1,64.07314180117363,
POFA/fMRI_POFA/048a.tif,f,,,,,,,,,,,0,1,1,3,,,,,,,,,,,,,,,,,,,,,,,,,,,,,,,,,,,,,,,,,c,1.615527708272566,,,,,,,fernando5,001,2019_Nov_21_2102,emofaces5,3.0.1,64.07314180117363,
POFA/fMRI_POFA/001a.tif,f,,,,,,,,,,,0,2,2,0,,,,,,,,,,,,,,,,,,,,,,,,,,,,,,,,,,,,,,,,,c,0.5793644361256156,,,,,,,fernando5,001,2019_Nov_21_2102,emofaces5,3.0.1,64.07314180117363,
POFA/fMRI_POFA/066a.tif,f,,,,,,,,,,,0,3,3,5,,,,,,,,,,,,,,,,,,,,,,,,,,,,,,,,,,,,,,,,,c,0.5475281995168189,,,,,,,fernando5,001,2019_Nov_21_2102,emofaces5,3.0.1,64.07314180117363,
POFA/fMRI_POFA/014a.tif,m,,,,,,,,,,,0,4,4,9,,,,,,,,,,,,,,,,,,,,,,,,,,,,,,,,,,,,,,,,,b,0.6105381330271484,,,,,,,fernando5,001,2019_Nov_21_2102,emofaces5,3.0.1,64.07314180117363,
POFA/fMRI_POFA/101a.tif,m,,,,,,,,,,,0,5,5,8,,,,,,,,,,,,,,,,,,,,,,,,,,,,,,,,,,,,,,,,,b,1.657447502046125,,,,,,,fernando5,001,2019_Nov_21_2102,emofaces5,3.0.1,64.07314180117363,
POFA/fMRI_POFA/042a.tif,f,,,,,,,,,,,0,6,6,2,,,,,,,,,,,,,,,,,,,,,,,,,,,,,,,,,,,,,,,,,c,0.9386382756201783,,,,,,,fernando5,001,2019_Nov_21_2102,emofaces5,3.0.1,64.07314180117363,
POFA/fMRI_POFA/084a.tif,f,,,,,,,,,,,0,7,7,6,,,,,,,,,,,,,,,,,,,,,,,,,,,,,,,,,,,,,,,,,c,1.782482761409483,,,,,,,fernando5,001,2019_Nov_21_2102,emofaces5,3.0.1,64.07314180117363,
POFA/fMRI_POFA/057a.tif,f,,,,,,,,,,,0,8,8,4,,,,,,,,,,,,,,,,,,,,,,,,,,,,,,,,,,,,,,,,,c,1.3762390324409353,,,,,,,fernando5,001,2019_Nov_21_2102,emofaces5,3.0.1,64.07314180117363,
POFA/fMRI_POFA/007a.tif,f,,,,,,,,,,,0,9,9,1,,,,,,,,,,,,,,,,,,,,,,,,,,,,,,,,,,,,,,,,,c,1.1263337947311811,,,,,,,fernando5,001,2019_Nov_21_2102,emofaces5,3.0.1,64.07314180117363,
POFA/fMRI_POFA/013a.tif,f,,,,,,,,,,,,,,,0,0,0,3,,,,,,,,,,,,,,,,,,,,,,,,,,,,,,,,,,,,,,,c,1.5793626665254124,,,,,fernando5,001,2019_Nov_21_2102,emofaces5,3.0.1,64.07314180117363,
POFA/fMRI_POFA/047a.tif,f,,,,,,,,,,,,,,,0,1,1,8,,,,,,,,,,,,,,,,,,,,,,,,,,,,,,,,,,,,,,,b,1.724129717622418,,,,,fernando5,001,2019_Nov_21_2102,emofaces5,3.0.1,64.07314180117363,
POFA/fMRI_POFA/006a.tif,f,,,,,,,,,,,,,,,0,2,2,2,,,,,,,,,,,,,,,,,,,,,,,,,,,,,,,,,,,,,,,c,1.2670289871748537,,,,,fernando5,001,2019_Nov_21_2102,emofaces5,3.0.1,64.07314180117363,
POFA/fMRI_POFA/021a.tif,m,,,,,,,,,,,,,,,0,3,3,1,,,,,,,,,,,,,,,,,,,,,,,,,,,,,,,,,,,,,,,b,0.7669505937228678,,,,,fernando5,001,2019_Nov_21_2102,emofaces5,3.0.1,64.07314180117363,
POFA/fMRI_POFA/041a.tif,m,,,,,,,,,,,,,,,0,4,4,7,,,,,,,,,,,,,,,,,,,,,,,,,,,,,,,,,,,,,,,b,0.8764791676949244,,,,,fernando5,001,2019_Nov_21_2102,emofaces5,3.0.1,64.07314180117363,
POFA/fMRI_POFA/056a.tif,f,,,,,,,,,,,,,,,0,5,5,9,,,,,,,,,,,,,,,,,,,,,,,,,,,,,,,,,,,,,,,c,1.7358030869654613,,,,,fernando5,001,2019_Nov_21_2102,emofaces5,3.0.1,64.07314180117363,
POFA/fMRI_POFA/033a.tif,m,,,,,,,,,,,,,,,0,6,6,0,,,,,,,,,,,,,,,,,,,,,,,,,,,,,,,,,,,,,,,b,0.719975041502039,,,,,fernando5,001,2019_Nov_21_2102,emofaces5,3.0.1,64.07314180117363,
POFA/fMRI_POFA/028a.tif,m,,,,,,,,,,,,,,,0,7,7,6,,,,,,,,,,,,,,,,,,,,,,,,,,,,,,,,,,,,,,,c,1.2044642860273598,,,,,fernando5,001,2019_Nov_21_2102,emofaces5,3.0.1,64.07314180117363,
POFA/fMRI_POFA/072a.tif,f,,,,,,,,,,,,,,,0,8,8,4,,,,,,,,,,,,,,,,,,,,,,,,,,,,,,,,,,,,,,,c,0.891940551213338,,,,,fernando5,001,2019_Nov_21_2102,emofaces5,3.0.1,64.07314180117363,
POFA/fMRI_POFA/083a.tif,m,,,,,,,,,,,,,,,0,9,9,5,,,,,,,,,,,,,,,,,,,,,,,,,,,,,,,,,,,,,,,b,1.3609312505432172,,,,,fernando5,001,2019_Nov_21_2102,emofaces5,3.0.1,64.07314180117363,
POFA/fMRI_POFA/061a.tif,f,,,,,,,,,,,,,,,,,,,0,0,0,8,,,,,,,,,,,,,,,,,,,,,,,,,,,,,,,,,,,,,c,0.6888172710605431,,,fernando5,001,2019_Nov_21_2102,emofaces5,3.0.1,64.07314180117363,
POFA/fMRI_POFA/030a.tif,m,,,,,,,,,,,,,,,,,,,0,1,1,4,,,,,,,,,,,,,,,,,,,,,,,,,,,,,,,,,,,,,b,1.9390123698831303,,,fernando5,001,2019_Nov_21_2102,emofaces5,3.0.1,64.07314180117363,
POFA/fMRI_POFA/044a.tif,f,,,,,,,,,,,,,,,,,,,0,2,2,6,,,,,,,,,,,,,,,,,,,,,,,,,,,,,,,,,,,,,c,0.8765382724668598,,,fernando5,001,2019_Nov_21_2102,emofaces5,3.0.1,64.07314180117363,
POFA/fMRI_POFA/038a.tif,m,,,,,,,,,,,,,,,,,,,0,3,3,5,,,,,,,,,,,,,,,,,,,,,,,,,,,,,,,,,,,,,b,1.1786892968375469,,,fernando5,001,2019_Nov_21_2102,emofaces5,3.0.1,64.07314180117363,
POFA/fMRI_POFA/018a.tif,m,,,,,,,,,,,,,,,,,,,0,4,4,2,,,,,,,,,,,,,,,,,,,,,,,,,,,,,,,,,,,,,b,0.6262012513907393,,,fernando5,001,2019_Nov_21_2102,emofaces5,3.0.1,64.07314180117363,
POFA/fMRI_POFA/003a.tif,f,,,,,,,,,,,,,,,,,,,0,5,5,0,,,,,,,,,,,,,,,,,,,,,,,,,,,,,,,,,,,,,c,1.173335183164454,,,fernando5,001,2019_Nov_21_2102,emofaces5,3.0.1,64.07314180117363,
POFA/fMRI_POFA/025a.tif,m,,,,,,,,,,,,,,,,,,,0,6,6,3,,,,,,,,,,,,,,,,,,,,,,,,,,,,,,,,,,,,,b,1.0327327179693384,,,fernando5,001,2019_Nov_21_2102,emofaces5,3.0.1,64.07314180117363,
POFA/fMRI_POFA/069a.tif,f,,,,,,,,,,,,,,,,,,,0,7,7,9,,,,,,,,,,,,,,,,,,,,,,,,,,,,,,,,,,,,,c,1.0795504215057008,,,fernando5,001,2019_Nov_21_2102,emofaces5,3.0.1,64.07314180117363,
POFA/fMRI_POFA/010a.tif,f,,,,,,,,,,,,,,,,,,,0,8,8,1,,,,,,,,,,,,,,,,,,,,,,,,,,,,,,,,,,,,,c,0.9077473614306655,,,fernando5,001,2019_Nov_21_2102,emofaces5,3.0.1,64.07314180117363,
POFA/fMRI_POFA/053a.tif,f,,,,,,,,,,,,,,,,,,,0,9,9,7,,,,,,,,,,,,,,,,,,,,,,,,,,,,,,,,,,,,,c,1.126372018174152,,,fernando5,001,2019_Nov_21_2102,emofaces5,3.0.1,64.07314180117363,
,,0.0,0.4,,,,,,,,,,,,,,,,,,,,,0,0,0,6,,,,,,,,,,,,,,,,,,,,,,,,,,,,,,,,,,,b,2.1105956451501697,fernando5,001,2019_Nov_21_2102,emofaces5,3.0.1,64.07314180117363,
,,0.0,0.2,,,,,,,,,,,,,,,,,,,,,0,1,1,7,,,,,,,,,,,,,,,,,,,,,,,,,,,,,,,,,,,c,0.5476938344509108,fernando5,001,2019_Nov_21_2102,emofaces5,3.0.1,64.07314180117363,
,,0.4,-0.2,,,,,,,,,,,,,,,,,,,,,0,2,2,9,,,,,,,,,,,,,,,,,,,,,,,,,,,,,,,,,,,b,1.485277780040633,fernando5,001,2019_Nov_21_2102,emofaces5,3.0.1,64.07314180117363,
,,-0.4,0.0,,,,,,,,,,,,,,,,,,,,,0,3,3,4,,,,,,,,,,,,,,,,,,,,,,,,,,,,,,,,,,,c,0.5321471560164355,fernando5,001,2019_Nov_21_2102,emofaces5,3.0.1,64.07314180117363,
,,0.2,0.0,,,,,,,,,,,,,,,,,,,,,0,4,4,3,,,,,,,,,,,,,,,,,,,,,,,,,,,,,,,,,,,b,0.4069947488751495,fernando5,001,2019_Nov_21_2102,emofaces5,3.0.1,64.07314180117363,
,,-0.2,-0.2,,,,,,,,,,,,,,,,,,,,,0,5,5,5,,,,,,,,,,,,,,,,,,,,,,,,,,,,,,,,,,,c,0.39147355273598805,fernando5,001,2019_Nov_21_2102,emofaces5,3.0.1,64.07314180117363,
,,-0.2,-0.4,,,,,,,,,,,,,,,,,,,,,0,6,6,0,,,,,,,,,,,,,,,,,,,,,,,,,,,,,,,,,,,None,,fernando5,001,2019_Nov_21_2102,emofaces5,3.0.1,64.07314180117363,
,,0.4,0.4,,,,,,,,,,,,,,,,,,,,,0,7,7,8,,,,,,,,,,,,,,,,,,,,,,,,,,,,,,,,,,,b,0.6102125258912565,fernando5,001,2019_Nov_21_2102,emofaces5,3.0.1,64.07314180117363,
,,-0.4,0.2,,,,,,,,,,,,,,,,,,,,,0,8,8,1,,,,,,,,,,,,,,,,,,,,,,,,,,,,,,,,,,,c,0.3758210519881686,fernando5,001,2019_Nov_21_2102,emofaces5,3.0.1,64.07314180117363,
,,0.2,-0.4,,,,,,,,,,,,,,,,,,,,,0,9,9,2,,,,,,,,,,,,,,,,,,,,,,,,,,,,,,,,,,,b,0.3287524186016526,fernando5,001,2019_Nov_21_2102,emofaces5,3.0.1,64.07314180117363,
POFA/fMRI_POFA/021c.tif,,,,,,,,,,,,,,,,,,,,,,,,,,,,0,0,0,7,,,,,,,,,,,,,,,,,,,,,c,0.7046336371276993,,,,,,,,,,,fernando5,001,2019_Nov_21_2102,emofaces5,3.0.1,64.07314180117363,
POFA/fMRI_POFA/033c.tif,,,,,,,,,,,,,,,,,,,,,,,,,,,,0,1,1,6,,,,,,,,,,,,,,,,,,,,,b,0.3451470912550576,,,,,,,,,,,fernando5,001,2019_Nov_21_2102,emofaces5,3.0.1,64.07314180117363,
POFA/fMRI_POFA/013c.tif,,,,,,,,,,,,,,,,,,,,,,,,,,,,0,2,2,3,,,,,,,,,,,,,,,,,,,,,c,0.33405485984985717,,,,,,,,,,,fernando5,001,2019_Nov_21_2102,emofaces5,3.0.1,64.07314180117363,
POFA/fMRI_POFA/006c.tif,,,,,,,,,,,,,,,,,,,,,,,,,,,,0,3,3,2,,,,,,,,,,,,,,,,,,,,,b,0.5014816893817624,,,,,,,,,,,fernando5,001,2019_Nov_21_2102,emofaces5,3.0.1,64.07314180117363,
POFA/fMRI_POFA/072c.tif,,,,,,,,,,,,,,,,,,,,,,,,,,,,0,4,4,4,,,,,,,,,,,,,,,,,,,,,c,0.3763317596894922,,,,,,,,,,,fernando5,001,2019_Nov_21_2102,emofaces5,3.0.1,64.07314180117363,
POFA/fMRI_POFA/021c.tif,,,,,,,,,,,,,,,,,,,,,,,,,,,,0,5,5,1,,,,,,,,,,,,,,,,,,,,,b,0.4543373169435654,,,,,,,,,,,fernando5,001,2019_Nov_21_2102,emofaces5,3.0.1,64.07314180117363,
POFA/fMRI_POFA/033c.tif,,,,,,,,,,,,,,,,,,,,,,,,,,,,0,6,6,0,,,,,,,,,,,,,,,,,,,,,c,0.43818118690978736,,,,,,,,,,,fernando5,001,2019_Nov_21_2102,emofaces5,3.0.1,64.07314180117363,
POFA/fMRI_POFA/013c.tif,,,,,,,,,,,,,,,,,,,,,,,,,,,,0,7,7,9,,,,,,,,,,,,,,,,,,,,,b,0.3453658142971108,,,,,,,,,,,fernando5,001,2019_Nov_21_2102,emofaces5,3.0.1,64.07314180117363,
POFA/fMRI_POFA/083c.tif,,,,,,,,,,,,,,,,,,,,,,,,,,,,0,8,8,5,,,,,,,,,,,,,,,,,,,,,c,0.3295126404555049,,,,,,,,,,,fernando5,001,2019_Nov_21_2102,emofaces5,3.0.1,64.07314180117363,
POFA/fMRI_POFA/006c.tif,,,,,,,,,,,,,,,,,,,,,,,,,,,,0,9,9,8,,,,,,,,,,,,,,,,,,,,,b,0.26722682890249416,,,,,,,,,,,fernando5,001,2019_Nov_21_2102,emofaces5,3.0.1,64.07314180117363,
POFA/fMRI_POFA/049a.tif,f,,,,,,,,,,,,,,,,,,,,,,,,,,,,,,,0,0,0,2,,,,,,,,,,,,,,,,,,,c,0.3757941540097818,,,,,,,,,fernando5,001,2019_Nov_21_2102,emofaces5,3.0.1,64.07314180117363,
POFA/fMRI_POFA/067a.tif,f,,,,,,,,,,,,,,,,,,,,,,,,,,,,,,,0,1,1,4,,,,,,,,,,,,,,,,,,,c,0.5795813895820174,,,,,,,,,fernando5,001,2019_Nov_21_2102,emofaces5,3.0.1,64.07314180117363,
POFA/fMRI_POFA/033a-sad.tif,m,,,,,,,,,,,,,,,,,,,,,,,,,,,,,,,0,2,2,9,,,,,,,,,,,,,,,,,,,b,,,,,,,,,,fernando5,001,2019_Nov_21_2102,emofaces5,3.0.1,64.07314180117363,
POFA/fMRI_POFA/002a.tif,f,,,,,,,,,,,,,,,,,,,,,,,,,,,,,,,0,3,3,0,,,,,,,,,,,,,,,,,,,c,0.7982524099352304,,,,,,,,,fernando5,001,2019_Nov_21_2102,emofaces5,3.0.1,64.07314180117363,
POFA/fMRI_POFA/094a.tif,f,,,,,,,,,,,,,,,,,,,,,,,,,,,,,,,0,4,4,6,,,,,,,,,,,,,,,,,,,c,0.8921943124150857,,,,,,,,,fernando5,001,2019_Nov_21_2102,emofaces5,3.0.1,64.07314180117363,
POFA/fMRI_POFA/008a.tif,f,,,,,,,,,,,,,,,,,,,,,,,,,,,,,,,0,5,5,1,,,,,,,,,,,,,,,,,,,c,1.3601777531875996,,,,,,,,,fernando5,001,2019_Nov_21_2102,emofaces5,3.0.1,64.07314180117363,
POFA/fMRI_POFA/015a.tif,m,,,,,,,,,,,,,,,,,,,,,,,,,,,,,,,0,6,6,7,,,,,,,,,,,,,,,,,,,b,,,,,,,,,,fernando5,001,2019_Nov_21_2102,emofaces5,3.0.1,64.07314180117363,
POFA/fMRI_POFA/023a.tif,m,,,,,,,,,,,,,,,,,,,,,,,,,,,,,,,0,7,7,8,,,,,,,,,,,,,,,,,,,b,,,,,,,,,,fernando5,001,2019_Nov_21_2102,emofaces5,3.0.1,64.07314180117363,
POFA/fMRI_POFA/086a.tif,f,,,,,,,,,,,,,,,,,,,,,,,,,,,,,,,0,8,8,5,,,,,,,,,,,,,,,,,,,c,0.8295853711751988,,,,,,,,,fernando5,001,2019_Nov_21_2102,emofaces5,3.0.1,64.07314180117363,
POFA/fMRI_POFA/058a.tif,f,,,,,,,,,,,,,,,,,,,,,,,,,,,,,,,0,9,9,3,,,,,,,,,,,,,,,,,,,c,1.0011721856571967,,,,,,,,,fernando5,001,2019_Nov_21_2102,emofaces5,3.0.1,64.07314180117363,
POFA/fMRI_POFA/101a.tif,m,,,,,,,,,,,,,,,,,,,,,,,,,,,,,,,,,,,0,0,0,8,,,,,,,,,,,,,,,,,b,0.5952781304222299,,,,,,,fernando5,001,2019_Nov_21_2102,emofaces5,3.0.1,64.07314180117363,
POFA/fMRI_POFA/048a.tif,f,,,,,,,,,,,,,,,,,,,,,,,,,,,,,,,,,,,0,1,1,3,,,,,,,,,,,,,,,,,c,0.6890009559429018,,,,,,,fernando5,001,2019_Nov_21_2102,emofaces5,3.0.1,64.07314180117363,
POFA/fMRI_POFA/066a.tif,f,,,,,,,,,,,,,,,,,,,,,,,,,,,,,,,,,,,0,2,2,5,,,,,,,,,,,,,,,,,c,0.5796787177969236,,,,,,,fernando5,001,2019_Nov_21_2102,emofaces5,3.0.1,64.07314180117363,
POFA/fMRI_POFA/001a.tif,f,,,,,,,,,,,,,,,,,,,,,,,,,,,,,,,,,,,0,3,3,0,,,,,,,,,,,,,,,,,c,0.7357747733040014,,,,,,,fernando5,001,2019_Nov_21_2102,emofaces5,3.0.1,64.07314180117363,
POFA/fMRI_POFA/057a.tif,f,,,,,,,,,,,,,,,,,,,,,,,,,,,,,,,,,,,0,4,4,4,,,,,,,,,,,,,,,,,c,1.6459740979626076,,,,,,,fernando5,001,2019_Nov_21_2102,emofaces5,3.0.1,64.07314180117363,
POFA/fMRI_POFA/007a.tif,f,,,,,,,,,,,,,,,,,,,,,,,,,,,,,,,,,,,0,5,5,1,,,,,,,,,,,,,,,,,c,0.692958852116135,,,,,,,fernando5,001,2019_Nov_21_2102,emofaces5,3.0.1,64.07314180117363,
POFA/fMRI_POFA/014a.tif,m,,,,,,,,,,,,,,,,,,,,,,,,,,,,,,,,,,,0,6,6,9,,,,,,,,,,,,,,,,,b,1.0989980148588074,,,,,,,fernando5,001,2019_Nov_21_2102,emofaces5,3.0.1,64.07314180117363,
POFA/fMRI_POFA/093a.tif,f,,,,,,,,,,,,,,,,,,,,,,,,,,,,,,,,,,,0,7,7,7,,,,,,,,,,,,,,,,,c,1.7085101315169595,,,,,,,fernando5,001,2019_Nov_21_2102,emofaces5,3.0.1,64.07314180117363,
POFA/fMRI_POFA/084a.tif,f,,,,,,,,,,,,,,,,,,,,,,,,,,,,,,,,,,,0,8,8,6,,,,,,,,,,,,,,,,,c,1.5324497582914773,,,,,,,fernando5,001,2019_Nov_21_2102,emofaces5,3.0.1,64.07314180117363,
POFA/fMRI_POFA/042a.tif,f,,,,,,,,,,,,,,,,,,,,,,,,,,,,,,,,,,,0,9,9,2,,,,,,,,,,,,,,,,,None,,,,,,,,fernando5,001,2019_Nov_21_2102,emofaces5,3.0.1,64.07314180117363,
POFA/fMRI_POFA/006a.tif,f,,,,,,,,,,,,,,,,,,,,,,,,,,,,,,,,,,,,,,,0,0,0,2,,,,,,,,,,,,,,,c,0.8453125492087565,,,,,fernando5,001,2019_Nov_21_2102,emofaces5,3.0.1,64.07314180117363,
POFA/fMRI_POFA/033a.tif,m,,,,,,,,,,,,,,,,,,,,,,,,,,,,,,,,,,,,,,,0,1,1,0,,,,,,,,,,,,,,,b,0.7044280091504334,,,,,fernando5,001,2019_Nov_21_2102,emofaces5,3.0.1,64.07314180117363,
POFA/fMRI_POFA/072a.tif,f,,,,,,,,,,,,,,,,,,,,,,,,,,,,,,,,,,,,,,,0,2,2,4,,,,,,,,,,,,,,,c,0.6569258228118997,,,,,fernando5,001,2019_Nov_21_2102,emofaces5,3.0.1,64.07314180117363,
POFA/fMRI_POFA/083a.tif,m,,,,,,,,,,,,,,,,,,,,,,,,,,,,,,,,,,,,,,,0,3,3,5,,,,,,,,,,,,,,,b,1.438691894611111,,,,,fernando5,001,2019_Nov_21_2102,emofaces5,3.0.1,64.07314180117363,
POFA/fMRI_POFA/041a.tif,m,,,,,,,,,,,,,,,,,,,,,,,,,,,,,,,,,,,,,,,0,4,4,7,,,,,,,,,,,,,,,b,0.7980959769483889,,,,,fernando5,001,2019_Nov_21_2102,emofaces5,3.0.1,64.07314180117363,
POFA/fMRI_POFA/021a.tif,m,,,,,,,,,,,,,,,,,,,,,,,,,,,,,,,,,,,,,,,0,5,5,1,,,,,,,,,,,,,,,b,0.7824070223578019,,,,,fernando5,001,2019_Nov_21_2102,emofaces5,3.0.1,64.07314180117363,
POFA/fMRI_POFA/047a.tif,f,,,,,,,,,,,,,,,,,,,,,,,,,,,,,,,,,,,,,,,0,6,6,8,,,,,,,,,,,,,,,c,0.8293284246901749,,,,,fernando5,001,2019_Nov_21_2102,emofaces5,3.0.1,64.07314180117363,
POFA/fMRI_POFA/028a.tif,m,,,,,,,,,,,,,,,,,,,,,,,,,,,,,,,,,,,,,,,0,7,7,6,,,,,,,,,,,,,,,b,0.7043876621755771,,,,,fernando5,001,2019_Nov_21_2102,emofaces5,3.0.1,64.07314180117363,
POFA/fMRI_POFA/056a.tif,f,,,,,,,,,,,,,,,,,,,,,,,,,,,,,,,,,,,,,,,0,8,8,9,,,,,,,,,,,,,,,c,1.6418594148708507,,,,,fernando5,001,2019_Nov_21_2102,emofaces5,3.0.1,64.07314180117363,
POFA/fMRI_POFA/013a.tif,f,,,,,,,,,,,,,,,,,,,,,,,,,,,,,,,,,,,,,,,0,9,9,3,,,,,,,,,,,,,,,c,0.8605619341979036,,,,,fernando5,001,2019_Nov_21_2102,emofaces5,3.0.1,64.07314180117363,
POFA/fMRI_POFA/003a.tif,f,,,,,,,,,,,,,,,,,,,,,,,,,,,,,,,,,,,,,,,,,,,0,0,0,0,,,,,,,,,,,,,c,1.2984437041159254,,,fernando5,001,2019_Nov_21_2102,emofaces5,3.0.1,64.07314180117363,
POFA/fMRI_POFA/025a.tif,m,,,,,,,,,,,,,,,,,,,,,,,,,,,,,,,,,,,,,,,,,,,0,1,1,3,,,,,,,,,,,,,b,2.407472188016982,,,fernando5,001,2019_Nov_21_2102,emofaces5,3.0.1,64.07314180117363,
POFA/fMRI_POFA/038a.tif,m,,,,,,,,,,,,,,,,,,,,,,,,,,,,,,,,,,,,,,,,,,,0,2,2,5,,,,,,,,,,,,,b,0.7671505589678418,,,fernando5,001,2019_Nov_21_2102,emofaces5,3.0.1,64.07314180117363,
POFA/fMRI_POFA/053a.tif,f,,,,,,,,,,,,,,,,,,,,,,,,,,,,,,,,,,,,,,,,,,,0,3,3,7,,,,,,,,,,,,,c,0.5634149958350463,,,fernando5,001,2019_Nov_21_2102,emofaces5,3.0.1,64.07314180117363,
POFA/fMRI_POFA/018a.tif,m,,,,,,,,,,,,,,,,,,,,,,,,,,,,,,,,,,,,,,,,,,,0,4,4,2,,,,,,,,,,,,,b,0.5792016325722216,,,fernando5,001,2019_Nov_21_2102,emofaces5,3.0.1,64.07314180117363,
POFA/fMRI_POFA/010a.tif,f,,,,,,,,,,,,,,,,,,,,,,,,,,,,,,,,,,,,,,,,,,,0,5,5,1,,,,,,,,,,,,,c,0.7513154350890545,,,fernando5,001,2019_Nov_21_2102,emofaces5,3.0.1,64.07314180117363,
POFA/fMRI_POFA/069a.tif,f,,,,,,,,,,,,,,,,,,,,,,,,,,,,,,,,,,,,,,,,,,,0,6,6,9,,,,,,,,,,,,,c,0.8293273629242321,,,fernando5,001,2019_Nov_21_2102,emofaces5,3.0.1,64.07314180117363,
POFA/fMRI_POFA/044a.tif,f,,,,,,,,,,,,,,,,,,,,,,,,,,,,,,,,,,,,,,,,,,,0,7,7,6,,,,,,,,,,,,,None,,,,fernando5,001,2019_Nov_21_2102,emofaces5,3.0.1,64.07314180117363,
POFA/fMRI_POFA/061a.tif,f,,,,,,,,,,,,,,,,,,,,,,,,,,,,,,,,,,,,,,,,,,,0,8,8,8,,,,,,,,,,,,,None,,,,fernando5,001,2019_Nov_21_2102,emofaces5,3.0.1,64.07314180117363,
POFA/fMRI_POFA/030a.tif,m,,,,,,,,,,,,,,,,,,,,,,,,,,,,,,,,,,,,,,,,,,,0,9,9,4,,,,,,,,,,,,,b,0.6882913447625469,,,fernando5,001,2019_Nov_21_2102,emofaces5,3.0.1,64.07314180117363,
,,0.0,0.4,,,,,,,,,,,,,,,,,,,,,,,,,,,,,,,,,,,,,,,,,,,,,0,0,0,6,,,,,,,,,,,c,0.8607130583695835,fernando5,001,2019_Nov_21_2102,emofaces5,3.0.1,64.07314180117363,
,,-0.4,0.0,,,,,,,,,,,,,,,,,,,,,,,,,,,,,,,,,,,,,,,,,,,,,0,1,1,4,,,,,,,,,,,b,0.5476322522445116,fernando5,001,2019_Nov_21_2102,emofaces5,3.0.1,64.07314180117363,
,,0.4,-0.2,,,,,,,,,,,,,,,,,,,,,,,,,,,,,,,,,,,,,,,,,,,,,0,2,2,9,,,,,,,,,,,c,0.4539504815329565,fernando5,001,2019_Nov_21_2102,emofaces5,3.0.1,64.07314180117363,
,,-0.2,-0.2,,,,,,,,,,,,,,,,,,,,,,,,,,,,,,,,,,,,,,,,,,,,,0,3,3,5,,,,,,,,,,,b,0.5008021614630707,fernando5,001,2019_Nov_21_2102,emofaces5,3.0.1,64.07314180117363,
,,0.0,0.2,,,,,,,,,,,,,,,,,,,,,,,,,,,,,,,,,,,,,,,,,,,,,0,4,4,7,,,,,,,,,,,c,0.360202527634101,fernando5,001,2019_Nov_21_2102,emofaces5,3.0.1,64.07314180117363,
,,0.2,0.0,,,,,,,,,,,,,,,,,,,,,,,,,,,,,,,,,,,,,,,,,,,,,0,5,5,3,,,,,,,,,,,b,0.3286140355776297,fernando5,001,2019_Nov_21_2102,emofaces5,3.0.1,64.07314180117363,
,,-0.2,-0.4,,,,,,,,,,,,,,,,,,,,,,,,,,,,,,,,,,,,,,,,,,,,,0,6,6,0,,,,,,,,,,,c,0.4372847055637976,fernando5,001,2019_Nov_21_2102,emofaces5,3.0.1,64.07314180117363,
,,0.4,0.4,,,,,,,,,,,,,,,,,,,,,,,,,,,,,,,,,,,,,,,,,,,,,0,7,7,8,,,,,,,,,,,b,0.3446643432980636,fernando5,001,2019_Nov_21_2102,emofaces5,3.0.1,64.07314180117363,
,,-0.4,0.2,,,,,,,,,,,,,,,,,,,,,,,,,,,,,,,,,,,,,,,,,,,,,0,8,8,1,,,,,,,,,,,c,0.2508622395253042,fernando5,001,2019_Nov_21_2102,emofaces5,3.0.1,64.07314180117363,
,,0.2,-0.4,,,,,,,,,,,,,,,,,,,,,,,,,,,,,,,,,,,,,,,,,,,,,0,9,9,2,,,,,,,,,,,b,0.2976636626990512,fernando5,001,2019_Nov_21_2102,emofaces5,3.0.1,64.07314180117363,
