stimulus,gender,x,y,trials.thisRepN,trials.thisTrialN,trials.thisN,trials.thisIndex,trials_2.thisRepN,trials_2.thisTrialN,trials_2.thisN,trials_2.thisIndex,trials_3.thisRepN,trials_3.thisTrialN,trials_3.thisN,trials_3.thisIndex,trials_4.thisRepN,trials_4.thisTrialN,trials_4.thisN,trials_4.thisIndex,trials_5.thisRepN,trials_5.thisTrialN,trials_5.thisN,trials_5.thisIndex,trials_6.thisRepN,trials_6.thisTrialN,trials_6.thisN,trials_6.thisIndex,trials_7.thisRepN,trials_7.thisTrialN,trials_7.thisN,trials_7.thisIndex,trials_8.thisRepN,trials_8.thisTrialN,trials_8.thisN,trials_8.thisIndex,trials_9.thisRepN,trials_9.thisTrialN,trials_9.thisN,trials_9.thisIndex,trials_10.thisRepN,trials_10.thisTrialN,trials_10.thisN,trials_10.thisIndex,trials_11.thisRepN,trials_11.thisTrialN,trials_11.thisN,trials_11.thisIndex,trials_12.thisRepN,trials_12.thisTrialN,trials_12.thisN,trials_12.thisIndex,key_resp_3.keys,key_resp_3.rt,key_resp_5.keys,key_resp_5.rt,key_resp_7.keys,key_resp_7.rt,key_resp_4.keys,key_resp_4.rt,key_resp_6.keys,key_resp_6.rt,key_resp_2.keys,key_resp_2.rt,participant,session,date,expName,psychopyVersion,frameRate,
POFA/fMRI_POFA/094a.tif,f,,,0,0,0,6,,,,,,,,,,,,,,,,,,,,,,,,,,,,,,,,,,,,,,,,,,,,,c,1.657247344192001,,,,,,,,,,,11-laura,001,2020_Mar_12_2047,emofaces2,3.0.1,64.09698356069181,
POFA/fMRI_POFA/002a.tif,f,,,0,1,1,0,,,,,,,,,,,,,,,,,,,,,,,,,,,,,,,,,,,,,,,,,,,,,c,1.7047227680450305,,,,,,,,,,,11-laura,001,2020_Mar_12_2047,emofaces2,3.0.1,64.09698356069181,
POFA/fMRI_POFA/049a.tif,f,,,0,2,2,2,,,,,,,,,,,,,,,,,,,,,,,,,,,,,,,,,,,,,,,,,,,,,c,1.235867654060712,,,,,,,,,,,11-laura,001,2020_Mar_12_2047,emofaces2,3.0.1,64.09698356069181,
POFA/fMRI_POFA/023a.tif,m,,,0,3,3,8,,,,,,,,,,,,,,,,,,,,,,,,,,,,,,,,,,,,,,,,,,,,,b,,,,,,,,,,,,11-laura,001,2020_Mar_12_2047,emofaces2,3.0.1,64.09698356069181,
POFA/fMRI_POFA/058a.tif,f,,,0,4,4,3,,,,,,,,,,,,,,,,,,,,,,,,,,,,,,,,,,,,,,,,,,,,,c,0.626399042448611,,,,,,,,,,,11-laura,001,2020_Mar_12_2047,emofaces2,3.0.1,64.09698356069181,
POFA/fMRI_POFA/033a-sad.tif,m,,,0,5,5,9,,,,,,,,,,,,,,,,,,,,,,,,,,,,,,,,,,,,,,,,,,,,,b,,,,,,,,,,,,11-laura,001,2020_Mar_12_2047,emofaces2,3.0.1,64.09698356069181,
POFA/fMRI_POFA/008a.tif,f,,,0,6,6,1,,,,,,,,,,,,,,,,,,,,,,,,,,,,,,,,,,,,,,,,,,,,,c,0.5787470129289431,,,,,,,,,,,11-laura,001,2020_Mar_12_2047,emofaces2,3.0.1,64.09698356069181,
POFA/fMRI_POFA/067a.tif,f,,,0,7,7,4,,,,,,,,,,,,,,,,,,,,,,,,,,,,,,,,,,,,,,,,,,,,,c,0.6888763916067546,,,,,,,,,,,11-laura,001,2020_Mar_12_2047,emofaces2,3.0.1,64.09698356069181,
POFA/fMRI_POFA/086a.tif,f,,,0,8,8,5,,,,,,,,,,,,,,,,,,,,,,,,,,,,,,,,,,,,,,,,,,,,,c,0.8296282716328278,,,,,,,,,,,11-laura,001,2020_Mar_12_2047,emofaces2,3.0.1,64.09698356069181,
POFA/fMRI_POFA/015a.tif,m,,,0,9,9,7,,,,,,,,,,,,,,,,,,,,,,,,,,,,,,,,,,,,,,,,,,,,,b,,,,,,,,,,,,11-laura,001,2020_Mar_12_2047,emofaces2,3.0.1,64.09698356069181,
POFA/fMRI_POFA/072a.tif,f,,,,,,,0,0,0,4,,,,,,,,,,,,,,,,,,,,,,,,,,,,,,,,,,,,,,,,,,,c,0.5793415971129434,,,,,,,,,11-laura,001,2020_Mar_12_2047,emofaces2,3.0.1,64.09698356069181,
POFA/fMRI_POFA/041a.tif,m,,,,,,,0,1,1,7,,,,,,,,,,,,,,,,,,,,,,,,,,,,,,,,,,,,,,,,,,,b,0.6576306386414217,,,,,,,,,11-laura,001,2020_Mar_12_2047,emofaces2,3.0.1,64.09698356069181,
POFA/fMRI_POFA/006a.tif,f,,,,,,,0,2,2,2,,,,,,,,,,,,,,,,,,,,,,,,,,,,,,,,,,,,,,,,,,,c,0.8138172871113056,,,,,,,,,11-laura,001,2020_Mar_12_2047,emofaces2,3.0.1,64.09698356069181,
POFA/fMRI_POFA/033a.tif,m,,,,,,,0,3,3,0,,,,,,,,,,,,,,,,,,,,,,,,,,,,,,,,,,,,,,,,,,,b,0.6735474449815229,,,,,,,,,11-laura,001,2020_Mar_12_2047,emofaces2,3.0.1,64.09698356069181,
POFA/fMRI_POFA/083a.tif,m,,,,,,,0,4,4,5,,,,,,,,,,,,,,,,,,,,,,,,,,,,,,,,,,,,,,,,,,,b,0.829574829826015,,,,,,,,,11-laura,001,2020_Mar_12_2047,emofaces2,3.0.1,64.09698356069181,
POFA/fMRI_POFA/056a.tif,f,,,,,,,0,5,5,9,,,,,,,,,,,,,,,,,,,,,,,,,,,,,,,,,,,,,,,,,,,c,0.6883667480142321,,,,,,,,,11-laura,001,2020_Mar_12_2047,emofaces2,3.0.1,64.09698356069181,
POFA/fMRI_POFA/028a.tif,m,,,,,,,0,6,6,6,,,,,,,,,,,,,,,,,,,,,,,,,,,,,,,,,,,,,,,,,,,b,0.9232423666690011,,,,,,,,,11-laura,001,2020_Mar_12_2047,emofaces2,3.0.1,64.09698356069181,
POFA/fMRI_POFA/047a.tif,f,,,,,,,0,7,7,8,,,,,,,,,,,,,,,,,,,,,,,,,,,,,,,,,,,,,,,,,,,c,0.6260267194738844,,,,,,,,,11-laura,001,2020_Mar_12_2047,emofaces2,3.0.1,64.09698356069181,
POFA/fMRI_POFA/013a.tif,f,,,,,,,0,8,8,3,,,,,,,,,,,,,,,,,,,,,,,,,,,,,,,,,,,,,,,,,,,c,0.6264507146261167,,,,,,,,,11-laura,001,2020_Mar_12_2047,emofaces2,3.0.1,64.09698356069181,
POFA/fMRI_POFA/021a.tif,m,,,,,,,0,9,9,1,,,,,,,,,,,,,,,,,,,,,,,,,,,,,,,,,,,,,,,,,,,b,0.5943587409565225,,,,,,,,,11-laura,001,2020_Mar_12_2047,emofaces2,3.0.1,64.09698356069181,
,,0.0,0.4,,,,,,,,,0,0,0,6,,,,,,,,,,,,,,,,,,,,,,,,,,,,,,,,,,,,,,,,,None,,,,,,,,11-laura,001,2020_Mar_12_2047,emofaces2,3.0.1,64.09698356069181,
,,0.4,0.4,,,,,,,,,0,1,1,8,,,,,,,,,,,,,,,,,,,,,,,,,,,,,,,,,,,,,,,,,c,0.46957356989150867,,,,,,,11-laura,001,2020_Mar_12_2047,emofaces2,3.0.1,64.09698356069181,
,,0.4,-0.2,,,,,,,,,0,2,2,9,,,,,,,,,,,,,,,,,,,,,,,,,,,,,,,,,,,,,,,,,b,0.5946270116837695,,,,,,,11-laura,001,2020_Mar_12_2047,emofaces2,3.0.1,64.09698356069181,
,,0.2,-0.4,,,,,,,,,0,3,3,2,,,,,,,,,,,,,,,,,,,,,,,,,,,,,,,,,,,,,,,,,c,0.5008752420835663,,,,,,,11-laura,001,2020_Mar_12_2047,emofaces2,3.0.1,64.09698356069181,
,,-0.2,-0.4,,,,,,,,,0,4,4,0,,,,,,,,,,,,,,,,,,,,,,,,,,,,,,,,,,,,,,,,,b,0.40665700704266783,,,,,,,11-laura,001,2020_Mar_12_2047,emofaces2,3.0.1,64.09698356069181,
,,0.2,0.0,,,,,,,,,0,5,5,3,,,,,,,,,,,,,,,,,,,,,,,,,,,,,,,,,,,,,,,,,c,0.5164922788972035,,,,,,,11-laura,001,2020_Mar_12_2047,emofaces2,3.0.1,64.09698356069181,
,,-0.2,-0.2,,,,,,,,,0,6,6,5,,,,,,,,,,,,,,,,,,,,,,,,,,,,,,,,,,,,,,,,,b,0.42270122427726164,,,,,,,11-laura,001,2020_Mar_12_2047,emofaces2,3.0.1,64.09698356069181,
,,-0.4,0.0,,,,,,,,,0,7,7,4,,,,,,,,,,,,,,,,,,,,,,,,,,,,,,,,,,,,,,,,,c,0.43850442257826217,,,,,,,11-laura,001,2020_Mar_12_2047,emofaces2,3.0.1,64.09698356069181,
,,-0.4,0.2,,,,,,,,,0,8,8,1,,,,,,,,,,,,,,,,,,,,,,,,,,,,,,,,,,,,,,,,,b,0.42273909361392725,,,,,,,11-laura,001,2020_Mar_12_2047,emofaces2,3.0.1,64.09698356069181,
,,0.0,0.2,,,,,,,,,0,9,9,7,,,,,,,,,,,,,,,,,,,,,,,,,,,,,,,,,,,,,,,,,c,0.31340851048298646,,,,,,,11-laura,001,2020_Mar_12_2047,emofaces2,3.0.1,64.09698356069181,
POFA/fMRI_POFA/025a.tif,m,,,,,,,,,,,,,,,0,0,0,3,,,,,,,,,,,,,,,,,,,,,,,,,,,,,,,,,,,,,,,b,1.8296088060742477,,,,,11-laura,001,2020_Mar_12_2047,emofaces2,3.0.1,64.09698356069181,
POFA/fMRI_POFA/061a.tif,f,,,,,,,,,,,,,,,0,1,1,8,,,,,,,,,,,,,,,,,,,,,,,,,,,,,,,,,,,,,,,c,2.6735771741950884,,,,,11-laura,001,2020_Mar_12_2047,emofaces2,3.0.1,64.09698356069181,
POFA/fMRI_POFA/030a.tif,m,,,,,,,,,,,,,,,0,2,2,4,,,,,,,,,,,,,,,,,,,,,,,,,,,,,,,,,,,,,,,b,2.2043419510300737,,,,,11-laura,001,2020_Mar_12_2047,emofaces2,3.0.1,64.09698356069181,
POFA/fMRI_POFA/010a.tif,f,,,,,,,,,,,,,,,0,3,3,1,,,,,,,,,,,,,,,,,,,,,,,,,,,,,,,,,,,,,,,c,1.5949143940379145,,,,,11-laura,001,2020_Mar_12_2047,emofaces2,3.0.1,64.09698356069181,
POFA/fMRI_POFA/038a.tif,m,,,,,,,,,,,,,,,0,4,4,5,,,,,,,,,,,,,,,,,,,,,,,,,,,,,,,,,,,,,,,b,1.1734009224601323,,,,,11-laura,001,2020_Mar_12_2047,emofaces2,3.0.1,64.09698356069181,
POFA/fMRI_POFA/053a.tif,f,,,,,,,,,,,,,,,0,5,5,7,,,,,,,,,,,,,,,,,,,,,,,,,,,,,,,,,,,,,,,c,0.9230816873750882,,,,,11-laura,001,2020_Mar_12_2047,emofaces2,3.0.1,64.09698356069181,
POFA/fMRI_POFA/003a.tif,f,,,,,,,,,,,,,,,0,6,6,0,,,,,,,,,,,,,,,,,,,,,,,,,,,,,,,,,,,,,,,c,0.5795942953845952,,,,,11-laura,001,2020_Mar_12_2047,emofaces2,3.0.1,64.09698356069181,
POFA/fMRI_POFA/069a.tif,f,,,,,,,,,,,,,,,0,7,7,9,,,,,,,,,,,,,,,,,,,,,,,,,,,,,,,,,,,,,,,c,0.610826245509088,,,,,11-laura,001,2020_Mar_12_2047,emofaces2,3.0.1,64.09698356069181,
POFA/fMRI_POFA/044a.tif,f,,,,,,,,,,,,,,,0,8,8,6,,,,,,,,,,,,,,,,,,,,,,,,,,,,,,,,,,,,,,,c,0.8605643453338416,,,,,11-laura,001,2020_Mar_12_2047,emofaces2,3.0.1,64.09698356069181,
POFA/fMRI_POFA/018a.tif,m,,,,,,,,,,,,,,,0,9,9,2,,,,,,,,,,,,,,,,,,,,,,,,,,,,,,,,,,,,,,,b,2.0949048382171895,,,,,11-laura,001,2020_Mar_12_2047,emofaces2,3.0.1,64.09698356069181,
POFA/fMRI_POFA/033c.tif,,,,,,,,,,,,,,,,,,,,0,0,0,0,,,,,,,,,,,,,,,,,,,,,,,,,,,,,,,,,,,,,None,,,,11-laura,001,2020_Mar_12_2047,emofaces2,3.0.1,64.09698356069181,
POFA/fMRI_POFA/006c.tif,,,,,,,,,,,,,,,,,,,,0,1,1,8,,,,,,,,,,,,,,,,,,,,,,,,,,,,,,,,,,,,,c,0.32929452585813124,,,11-laura,001,2020_Mar_12_2047,emofaces2,3.0.1,64.09698356069181,
POFA/fMRI_POFA/013c.tif,,,,,,,,,,,,,,,,,,,,0,2,2,3,,,,,,,,,,,,,,,,,,,,,,,,,,,,,,,,,,,,,b,0.5793292099406244,,,11-laura,001,2020_Mar_12_2047,emofaces2,3.0.1,64.09698356069181,
POFA/fMRI_POFA/021c.tif,,,,,,,,,,,,,,,,,,,,0,3,3,7,,,,,,,,,,,,,,,,,,,,,,,,,,,,,,,,,,,,,c,0.3764602704468416,,,11-laura,001,2020_Mar_12_2047,emofaces2,3.0.1,64.09698356069181,
POFA/fMRI_POFA/013c.tif,,,,,,,,,,,,,,,,,,,,0,4,4,9,,,,,,,,,,,,,,,,,,,,,,,,,,,,,,,,,,,,,b,0.487790496845264,,,11-laura,001,2020_Mar_12_2047,emofaces2,3.0.1,64.09698356069181,
POFA/fMRI_POFA/033c.tif,,,,,,,,,,,,,,,,,,,,0,5,5,6,,,,,,,,,,,,,,,,,,,,,,,,,,,,,,,,,,,,,c,0.3608478345850017,,,11-laura,001,2020_Mar_12_2047,emofaces2,3.0.1,64.09698356069181,
POFA/fMRI_POFA/083c.tif,,,,,,,,,,,,,,,,,,,,0,6,6,5,,,,,,,,,,,,,,,,,,,,,,,,,,,,,,,,,,,,,b,0.5639641635643784,,,11-laura,001,2020_Mar_12_2047,emofaces2,3.0.1,64.09698356069181,
POFA/fMRI_POFA/072c.tif,,,,,,,,,,,,,,,,,,,,0,7,7,4,,,,,,,,,,,,,,,,,,,,,,,,,,,,,,,,,,,,,c,0.8765646765968995,,,11-laura,001,2020_Mar_12_2047,emofaces2,3.0.1,64.09698356069181,
POFA/fMRI_POFA/021c.tif,,,,,,,,,,,,,,,,,,,,0,8,8,1,,,,,,,,,,,,,,,,,,,,,,,,,,,,,,,,,,,,,b,0.8454569521127269,,,11-laura,001,2020_Mar_12_2047,emofaces2,3.0.1,64.09698356069181,
POFA/fMRI_POFA/006c.tif,,,,,,,,,,,,,,,,,,,,0,9,9,2,,,,,,,,,,,,,,,,,,,,,,,,,,,,,,,,,,,,,c,1.032657182586263,,,11-laura,001,2020_Mar_12_2047,emofaces2,3.0.1,64.09698356069181,
POFA/fMRI_POFA/001a.tif,f,,,,,,,,,,,,,,,,,,,,,,,0,0,0,0,,,,,,,,,,,,,,,,,,,,,,,,,,,,,,,,,,,c,1.1261077669769293,11-laura,001,2020_Mar_12_2047,emofaces2,3.0.1,64.09698356069181,
POFA/fMRI_POFA/048a.tif,f,,,,,,,,,,,,,,,,,,,,,,,0,1,1,3,,,,,,,,,,,,,,,,,,,,,,,,,,,,,,,,,,,c,2.188713234878378,11-laura,001,2020_Mar_12_2047,emofaces2,3.0.1,64.09698356069181,
POFA/fMRI_POFA/101a.tif,m,,,,,,,,,,,,,,,,,,,,,,,0,2,2,8,,,,,,,,,,,,,,,,,,,,,,,,,,,,,,,,,,,b,1.9230583286989713,11-laura,001,2020_Mar_12_2047,emofaces2,3.0.1,64.09698356069181,
POFA/fMRI_POFA/066a.tif,f,,,,,,,,,,,,,,,,,,,,,,,0,3,3,5,,,,,,,,,,,,,,,,,,,,,,,,,,,,,,,,,,,c,1.1418334569607396,11-laura,001,2020_Mar_12_2047,emofaces2,3.0.1,64.09698356069181,
POFA/fMRI_POFA/057a.tif,f,,,,,,,,,,,,,,,,,,,,,,,0,4,4,4,,,,,,,,,,,,,,,,,,,,,,,,,,,,,,,,,,,c,0.7507665888988413,11-laura,001,2020_Mar_12_2047,emofaces2,3.0.1,64.09698356069181,
POFA/fMRI_POFA/042a.tif,f,,,,,,,,,,,,,,,,,,,,,,,0,5,5,2,,,,,,,,,,,,,,,,,,,,,,,,,,,,,,,,,,,c,1.3138448928075377,11-laura,001,2020_Mar_12_2047,emofaces2,3.0.1,64.09698356069181,
POFA/fMRI_POFA/084a.tif,f,,,,,,,,,,,,,,,,,,,,,,,0,6,6,6,,,,,,,,,,,,,,,,,,,,,,,,,,,,,,,,,,,c,0.6890462728042621,11-laura,001,2020_Mar_12_2047,emofaces2,3.0.1,64.09698356069181,
POFA/fMRI_POFA/007a.tif,f,,,,,,,,,,,,,,,,,,,,,,,0,7,7,1,,,,,,,,,,,,,,,,,,,,,,,,,,,,,,,,,,,c,0.46995155554031953,11-laura,001,2020_Mar_12_2047,emofaces2,3.0.1,64.09698356069181,
POFA/fMRI_POFA/014a.tif,m,,,,,,,,,,,,,,,,,,,,,,,0,8,8,9,,,,,,,,,,,,,,,,,,,,,,,,,,,,,,,,,,,b,0.8762914510007249,11-laura,001,2020_Mar_12_2047,emofaces2,3.0.1,64.09698356069181,
POFA/fMRI_POFA/093a.tif,f,,,,,,,,,,,,,,,,,,,,,,,0,9,9,7,,,,,,,,,,,,,,,,,,,,,,,,,,,,,,,,,,,c,0.7981917562283343,11-laura,001,2020_Mar_12_2047,emofaces2,3.0.1,64.09698356069181,
POFA/fMRI_POFA/058a.tif,f,,,,,,,,,,,,,,,,,,,,,,,,,,,0,0,0,3,,,,,,,,,,,,,,,,,,,,,c,0.8137988833186682,,,,,,,,,,,11-laura,001,2020_Mar_12_2047,emofaces2,3.0.1,64.09698356069181,
POFA/fMRI_POFA/015a.tif,m,,,,,,,,,,,,,,,,,,,,,,,,,,,0,1,1,7,,,,,,,,,,,,,,,,,,,,,b,,,,,,,,,,,,11-laura,001,2020_Mar_12_2047,emofaces2,3.0.1,64.09698356069181,
POFA/fMRI_POFA/023a.tif,m,,,,,,,,,,,,,,,,,,,,,,,,,,,0,2,2,8,,,,,,,,,,,,,,,,,,,,,c,0.5480788560089422,,,,,,,,,,,11-laura,001,2020_Mar_12_2047,emofaces2,3.0.1,64.09698356069181,
POFA/fMRI_POFA/067a.tif,f,,,,,,,,,,,,,,,,,,,,,,,,,,,0,3,3,4,,,,,,,,,,,,,,,,,,,,,c,0.6106100009055808,,,,,,,,,,,11-laura,001,2020_Mar_12_2047,emofaces2,3.0.1,64.09698356069181,
POFA/fMRI_POFA/094a.tif,f,,,,,,,,,,,,,,,,,,,,,,,,,,,0,4,4,6,,,,,,,,,,,,,,,,,,,,,c,0.7512988833041163,,,,,,,,,,,11-laura,001,2020_Mar_12_2047,emofaces2,3.0.1,64.09698356069181,
POFA/fMRI_POFA/049a.tif,f,,,,,,,,,,,,,,,,,,,,,,,,,,,0,5,5,2,,,,,,,,,,,,,,,,,,,,,c,1.0325510068360018,,,,,,,,,,,11-laura,001,2020_Mar_12_2047,emofaces2,3.0.1,64.09698356069181,
POFA/fMRI_POFA/086a.tif,f,,,,,,,,,,,,,,,,,,,,,,,,,,,0,6,6,5,,,,,,,,,,,,,,,,,,,,,c,0.7043914997047978,,,,,,,,,,,11-laura,001,2020_Mar_12_2047,emofaces2,3.0.1,64.09698356069181,
POFA/fMRI_POFA/002a.tif,f,,,,,,,,,,,,,,,,,,,,,,,,,,,0,7,7,0,,,,,,,,,,,,,,,,,,,,,c,1.2981726446014363,,,,,,,,,,,11-laura,001,2020_Mar_12_2047,emofaces2,3.0.1,64.09698356069181,
POFA/fMRI_POFA/033a-sad.tif,m,,,,,,,,,,,,,,,,,,,,,,,,,,,0,8,8,9,,,,,,,,,,,,,,,,,,,,,b,,,,,,,,,,,,11-laura,001,2020_Mar_12_2047,emofaces2,3.0.1,64.09698356069181,
POFA/fMRI_POFA/008a.tif,f,,,,,,,,,,,,,,,,,,,,,,,,,,,0,9,9,1,,,,,,,,,,,,,,,,,,,,,c,1.4702952110528713,,,,,,,,,,,11-laura,001,2020_Mar_12_2047,emofaces2,3.0.1,64.09698356069181,
POFA/fMRI_POFA/033a.tif,m,,,,,,,,,,,,,,,,,,,,,,,,,,,,,,,0,0,0,0,,,,,,,,,,,,,,,,,,,b,0.6893290542066097,,,,,,,,,11-laura,001,2020_Mar_12_2047,emofaces2,3.0.1,64.09698356069181,
POFA/fMRI_POFA/021a.tif,m,,,,,,,,,,,,,,,,,,,,,,,,,,,,,,,0,1,1,1,,,,,,,,,,,,,,,,,,,b,0.9700290638429578,,,,,,,,,11-laura,001,2020_Mar_12_2047,emofaces2,3.0.1,64.09698356069181,
POFA/fMRI_POFA/013a.tif,f,,,,,,,,,,,,,,,,,,,,,,,,,,,,,,,0,2,2,3,,,,,,,,,,,,,,,,,,,c,0.9386643940379145,,,,,,,,,11-laura,001,2020_Mar_12_2047,emofaces2,3.0.1,64.09698356069181,
POFA/fMRI_POFA/047a.tif,f,,,,,,,,,,,,,,,,,,,,,,,,,,,,,,,0,3,3,8,,,,,,,,,,,,,,,,,,,c,0.8605370935547398,,,,,,,,,11-laura,001,2020_Mar_12_2047,emofaces2,3.0.1,64.09698356069181,
POFA/fMRI_POFA/056a.tif,f,,,,,,,,,,,,,,,,,,,,,,,,,,,,,,,0,4,4,9,,,,,,,,,,,,,,,,,,,c,0.6574430614855373,,,,,,,,,11-laura,001,2020_Mar_12_2047,emofaces2,3.0.1,64.09698356069181,
POFA/fMRI_POFA/072a.tif,f,,,,,,,,,,,,,,,,,,,,,,,,,,,,,,,0,5,5,4,,,,,,,,,,,,,,,,,,,c,0.9227104261808563,,,,,,,,,11-laura,001,2020_Mar_12_2047,emofaces2,3.0.1,64.09698356069181,
POFA/fMRI_POFA/041a.tif,m,,,,,,,,,,,,,,,,,,,,,,,,,,,,,,,0,6,6,7,,,,,,,,,,,,,,,,,,,b,0.6730891196784796,,,,,,,,,11-laura,001,2020_Mar_12_2047,emofaces2,3.0.1,64.09698356069181,
POFA/fMRI_POFA/083a.tif,m,,,,,,,,,,,,,,,,,,,,,,,,,,,,,,,0,7,7,5,,,,,,,,,,,,,,,,,,,b,0.6890682157827541,,,,,,,,,11-laura,001,2020_Mar_12_2047,emofaces2,3.0.1,64.09698356069181,
POFA/fMRI_POFA/028a.tif,m,,,,,,,,,,,,,,,,,,,,,,,,,,,,,,,0,8,8,6,,,,,,,,,,,,,,,,,,,b,0.7356744142016396,,,,,,,,,11-laura,001,2020_Mar_12_2047,emofaces2,3.0.1,64.09698356069181,
POFA/fMRI_POFA/006a.tif,f,,,,,,,,,,,,,,,,,,,,,,,,,,,,,,,0,9,9,2,,,,,,,,,,,,,,,,,,,c,0.9387107574439142,,,,,,,,,11-laura,001,2020_Mar_12_2047,emofaces2,3.0.1,64.09698356069181,
,,-0.4,0.2,,,,,,,,,,,,,,,,,,,,,,,,,,,,,,,,,0,0,0,1,,,,,,,,,,,,,,,,,None,,,,,,,,11-laura,001,2020_Mar_12_2047,emofaces2,3.0.1,64.09698356069181,
,,0.0,0.2,,,,,,,,,,,,,,,,,,,,,,,,,,,,,,,,,0,1,1,7,,,,,,,,,,,,,,,,,c,0.6726845900848275,,,,,,,11-laura,001,2020_Mar_12_2047,emofaces2,3.0.1,64.09698356069181,
,,0.2,0.0,,,,,,,,,,,,,,,,,,,,,,,,,,,,,,,,,0,2,2,3,,,,,,,,,,,,,,,,,b,0.9695417171606096,,,,,,,11-laura,001,2020_Mar_12_2047,emofaces2,3.0.1,64.09698356069181,
,,0.4,0.4,,,,,,,,,,,,,,,,,,,,,,,,,,,,,,,,,0,3,3,8,,,,,,,,,,,,,,,,,c,0.4696627575176535,,,,,,,11-laura,001,2020_Mar_12_2047,emofaces2,3.0.1,64.09698356069181,
,,-0.2,-0.2,,,,,,,,,,,,,,,,,,,,,,,,,,,,,,,,,0,4,4,5,,,,,,,,,,,,,,,,,b,0.34462382640049327,,,,,,,11-laura,001,2020_Mar_12_2047,emofaces2,3.0.1,64.09698356069181,
,,-0.4,0.0,,,,,,,,,,,,,,,,,,,,,,,,,,,,,,,,,0,5,5,4,,,,,,,,,,,,,,,,,c,0.45395617914618924,,,,,,,11-laura,001,2020_Mar_12_2047,emofaces2,3.0.1,64.09698356069181,
,,0.4,-0.2,,,,,,,,,,,,,,,,,,,,,,,,,,,,,,,,,0,6,6,9,,,,,,,,,,,,,,,,,b,0.36016264707723167,,,,,,,11-laura,001,2020_Mar_12_2047,emofaces2,3.0.1,64.09698356069181,
,,-0.2,-0.4,,,,,,,,,,,,,,,,,,,,,,,,,,,,,,,,,0,7,7,0,,,,,,,,,,,,,,,,,c,0.5946581565658562,,,,,,,11-laura,001,2020_Mar_12_2047,emofaces2,3.0.1,64.09698356069181,
,,0.2,-0.4,,,,,,,,,,,,,,,,,,,,,,,,,,,,,,,,,0,8,8,2,,,,,,,,,,,,,,,,,c,0.48514707463618834,,,,,,,11-laura,001,2020_Mar_12_2047,emofaces2,3.0.1,64.09698356069181,
,,0.0,0.4,,,,,,,,,,,,,,,,,,,,,,,,,,,,,,,,,0,9,9,6,,,,,,,,,,,,,,,,,b,0.5789023834367981,,,,,,,11-laura,001,2020_Mar_12_2047,emofaces2,3.0.1,64.09698356069181,
POFA/fMRI_POFA/069a.tif,f,,,,,,,,,,,,,,,,,,,,,,,,,,,,,,,,,,,,,,,0,0,0,9,,,,,,,,,,,,,,,c,1.6423795542214066,,,,,11-laura,001,2020_Mar_12_2047,emofaces2,3.0.1,64.09698356069181,
POFA/fMRI_POFA/010a.tif,f,,,,,,,,,,,,,,,,,,,,,,,,,,,,,,,,,,,,,,,0,1,1,1,,,,,,,,,,,,,,,c,1.0950531303387834,,,,,11-laura,001,2020_Mar_12_2047,emofaces2,3.0.1,64.09698356069181,
POFA/fMRI_POFA/003a.tif,f,,,,,,,,,,,,,,,,,,,,,,,,,,,,,,,,,,,,,,,0,2,2,0,,,,,,,,,,,,,,,c,1.0324586339265807,,,,,11-laura,001,2020_Mar_12_2047,emofaces2,3.0.1,64.09698356069181,
POFA/fMRI_POFA/053a.tif,f,,,,,,,,,,,,,,,,,,,,,,,,,,,,,,,,,,,,,,,0,3,3,7,,,,,,,,,,,,,,,c,1.1412774499622174,,,,,11-laura,001,2020_Mar_12_2047,emofaces2,3.0.1,64.09698356069181,
POFA/fMRI_POFA/025a.tif,m,,,,,,,,,,,,,,,,,,,,,,,,,,,,,,,,,,,,,,,0,4,4,3,,,,,,,,,,,,,,,c,1.7512840187118854,,,,,11-laura,001,2020_Mar_12_2047,emofaces2,3.0.1,64.09698356069181,
POFA/fMRI_POFA/061a.tif,f,,,,,,,,,,,,,,,,,,,,,,,,,,,,,,,,,,,,,,,0,5,5,8,,,,,,,,,,,,,,,c,2.0011863370309584,,,,,11-laura,001,2020_Mar_12_2047,emofaces2,3.0.1,64.09698356069181,
POFA/fMRI_POFA/044a.tif,f,,,,,,,,,,,,,,,,,,,,,,,,,,,,,,,,,,,,,,,0,6,6,6,,,,,,,,,,,,,,,c,1.0324349213478854,,,,,11-laura,001,2020_Mar_12_2047,emofaces2,3.0.1,64.09698356069181,
POFA/fMRI_POFA/018a.tif,m,,,,,,,,,,,,,,,,,,,,,,,,,,,,,,,,,,,,,,,0,7,7,2,,,,,,,,,,,,,,,b,0.7511799664789578,,,,,11-laura,001,2020_Mar_12_2047,emofaces2,3.0.1,64.09698356069181,
POFA/fMRI_POFA/030a.tif,m,,,,,,,,,,,,,,,,,,,,,,,,,,,,,,,,,,,,,,,0,8,8,4,,,,,,,,,,,,,,,b,0.9389248785300879,,,,,11-laura,001,2020_Mar_12_2047,emofaces2,3.0.1,64.09698356069181,
POFA/fMRI_POFA/038a.tif,m,,,,,,,,,,,,,,,,,,,,,,,,,,,,,,,,,,,,,,,0,9,9,5,,,,,,,,,,,,,,,b,0.6418362883268856,,,,,11-laura,001,2020_Mar_12_2047,emofaces2,3.0.1,64.09698356069181,
POFA/fMRI_POFA/021c.tif,,,,,,,,,,,,,,,,,,,,,,,,,,,,,,,,,,,,,,,,,,,,0,0,0,7,,,,,,,,,,,,,None,,,,11-laura,001,2020_Mar_12_2047,emofaces2,3.0.1,64.09698356069181,
POFA/fMRI_POFA/006c.tif,,,,,,,,,,,,,,,,,,,,,,,,,,,,,,,,,,,,,,,,,,,,0,1,1,2,,,,,,,,,,,,,c,0.2826685079926392,,,11-laura,001,2020_Mar_12_2047,emofaces2,3.0.1,64.09698356069181,
POFA/fMRI_POFA/033c.tif,,,,,,,,,,,,,,,,,,,,,,,,,,,,,,,,,,,,,,,,,,,,0,2,2,0,,,,,,,,,,,,,b,0.4233067799505079,,,11-laura,001,2020_Mar_12_2047,emofaces2,3.0.1,64.09698356069181,
POFA/fMRI_POFA/006c.tif,,,,,,,,,,,,,,,,,,,,,,,,,,,,,,,,,,,,,,,,,,,,0,3,3,8,,,,,,,,,,,,,c,0.4857381196488859,,,11-laura,001,2020_Mar_12_2047,emofaces2,3.0.1,64.09698356069181,
POFA/fMRI_POFA/013c.tif,,,,,,,,,,,,,,,,,,,,,,,,,,,,,,,,,,,,,,,,,,,,0,4,4,9,,,,,,,,,,,,,b,0.3295458084612619,,,11-laura,001,2020_Mar_12_2047,emofaces2,3.0.1,64.09698356069181,
POFA/fMRI_POFA/072c.tif,,,,,,,,,,,,,,,,,,,,,,,,,,,,,,,,,,,,,,,,,,,,0,5,5,4,,,,,,,,,,,,,c,0.5638388761726674,,,11-laura,001,2020_Mar_12_2047,emofaces2,3.0.1,64.09698356069181,
POFA/fMRI_POFA/013c.tif,,,,,,,,,,,,,,,,,,,,,,,,,,,,,,,,,,,,,,,,,,,,0,6,6,3,,,,,,,,,,,,,b,0.3182494167413097,,,11-laura,001,2020_Mar_12_2047,emofaces2,3.0.1,64.09698356069181,
POFA/fMRI_POFA/021c.tif,,,,,,,,,,,,,,,,,,,,,,,,,,,,,,,,,,,,,,,,,,,,0,7,7,1,,,,,,,,,,,,,c,0.37839160730072763,,,11-laura,001,2020_Mar_12_2047,emofaces2,3.0.1,64.09698356069181,
POFA/fMRI_POFA/083c.tif,,,,,,,,,,,,,,,,,,,,,,,,,,,,,,,,,,,,,,,,,,,,0,8,8,5,,,,,,,,,,,,,b,0.7198149427567841,,,11-laura,001,2020_Mar_12_2047,emofaces2,3.0.1,64.09698356069181,
POFA/fMRI_POFA/033c.tif,,,,,,,,,,,,,,,,,,,,,,,,,,,,,,,,,,,,,,,,,,,,0,9,9,6,,,,,,,,,,,,,c,0.6105590365477838,,,11-laura,001,2020_Mar_12_2047,emofaces2,3.0.1,64.09698356069181,
POFA/fMRI_POFA/007a.tif,f,,,,,,,,,,,,,,,,,,,,,,,,,,,,,,,,,,,,,,,,,,,,,,,0,0,0,1,,,,,,,,,,,b,0.5175235993228853,11-laura,001,2020_Mar_12_2047,emofaces2,3.0.1,64.09698356069181,
POFA/fMRI_POFA/093a.tif,f,,,,,,,,,,,,,,,,,,,,,,,,,,,,,,,,,,,,,,,,,,,,,,,0,1,1,7,,,,,,,,,,,c,1.6887125270441175,11-laura,001,2020_Mar_12_2047,emofaces2,3.0.1,64.09698356069181,
POFA/fMRI_POFA/042a.tif,f,,,,,,,,,,,,,,,,,,,,,,,,,,,,,,,,,,,,,,,,,,,,,,,0,2,2,2,,,,,,,,,,,c,1.8450602087250445,11-laura,001,2020_Mar_12_2047,emofaces2,3.0.1,64.09698356069181,
POFA/fMRI_POFA/066a.tif,f,,,,,,,,,,,,,,,,,,,,,,,,,,,,,,,,,,,,,,,,,,,,,,,0,3,3,5,,,,,,,,,,,c,0.7043270864232909,11-laura,001,2020_Mar_12_2047,emofaces2,3.0.1,64.09698356069181,
POFA/fMRI_POFA/001a.tif,f,,,,,,,,,,,,,,,,,,,,,,,,,,,,,,,,,,,,,,,,,,,,,,,0,4,4,0,,,,,,,,,,,c,0.7664190176292323,11-laura,001,2020_Mar_12_2047,emofaces2,3.0.1,64.09698356069181,
POFA/fMRI_POFA/101a.tif,m,,,,,,,,,,,,,,,,,,,,,,,,,,,,,,,,,,,,,,,,,,,,,,,0,5,5,8,,,,,,,,,,,b,0.7354532147146529,11-laura,001,2020_Mar_12_2047,emofaces2,3.0.1,64.09698356069181,
POFA/fMRI_POFA/057a.tif,f,,,,,,,,,,,,,,,,,,,,,,,,,,,,,,,,,,,,,,,,,,,,,,,0,6,6,4,,,,,,,,,,,c,1.626346662393189,11-laura,001,2020_Mar_12_2047,emofaces2,3.0.1,64.09698356069181,
POFA/fMRI_POFA/014a.tif,m,,,,,,,,,,,,,,,,,,,,,,,,,,,,,,,,,,,,,,,,,,,,,,,0,7,7,9,,,,,,,,,,,b,0.5792789534170879,11-laura,001,2020_Mar_12_2047,emofaces2,3.0.1,64.09698356069181,
POFA/fMRI_POFA/084a.tif,f,,,,,,,,,,,,,,,,,,,,,,,,,,,,,,,,,,,,,,,,,,,,,,,0,8,8,6,,,,,,,,,,,c,0.6105505424784496,11-laura,001,2020_Mar_12_2047,emofaces2,3.0.1,64.09698356069181,
POFA/fMRI_POFA/048a.tif,f,,,,,,,,,,,,,,,,,,,,,,,,,,,,,,,,,,,,,,,,,,,,,,,0,9,9,3,,,,,,,,,,,c,0.96993846053374,11-laura,001,2020_Mar_12_2047,emofaces2,3.0.1,64.09698356069181,
